<Patient xmlns="http://hl7.org/fhir">
    <modifierExtension url="http://example.org/fhir/StructureDefinition/pi">
        <valueDecimal value="3.141592653589793"/>

    </modifierExtension>
    <modifierExtension url="http://example.org/fhir/StructureDefinition/avogadro">
        <valueDecimal value="602214162464240000000000"/>

    </modifierExtension>
    <multipleBirthInteger value="3"/>
    <extension url="http://example.org/fhir/StructureDefinition/patientAvatar">
        <valueReference>
            <reference value="#pic1"/>
            <display value="Duck image"/>
        </valueReference>
    </extension>
    <extension url="http://example.org/fhir/StructureDefinition/complexExtensionExample">
        <extension url="nestedA">
            <valueCoding>
                <extension url="http://example.org/fhir/StructureDefinition/extraforcodingWithExt">
                    <extension url="extra1">
                        <valueString value="extra info"/>
                    </extension>
                </extension>
                <extension url="http://example.org/fhir/StructureDefinition/extraforcodingWithValue">
                    <valueInteger value="45"/>
                </extension>
                <code value="AB45"/>
                <system value="http://demo.org/id/4"/>
            </valueCoding>
        </extension>
        <extension url="nestedB">
            <extension url="nestedB1">
                <valueString value="hello"/>
            </extension>
        </extension>
    </extension>
    <maritalStatus>
        <coding>
            <display value="unknown"/>
            <code value="UNK"/>
            <system value="http://hl7.org/fhir/v3/NullFlavor"/>
        </coding>
    </maritalStatus>
    <birthDate value="1974-12"/>
    <deceasedBoolean value="true"/>
    <contained>
        <Binary xmlns="http://hl7.org/fhir">
            <contentType value="image/gif"/>
            <content value=""/>
            <id value="pic1"/>
        </Binary>
    </contained>
    <contained>
        <Organization xmlns="http://hl7.org/fhir">
            <identifier>
                <value value="2.16.840.1.113883.19.5"/>
                <system value="urn:ietf:rfc:3986"/>
            </identifier>
            <id value="org3141"/>
            <name value="Good Health Clinic"/>
        </Organization>
    </contained>
    <text>
        <status value="generated"/>
        <div xmlns="http://www.w3.org/1999/xhtml">
            <table>
                <tbody>
                    <tr>
                        <td>Name</td>
                        <td>Peter James

                            <b>Chalmers</b> (&quot;Jim&quot;)

                        </td>

                    </tr>
                    <tr>
                        <td>Address</td>
                        <td>534 Erewhon, Pleasantville, Vic, 3999</td>
                    </tr>
                    <tr>
                        <td>Contacts</td>
                        <td>Home: unknown. Work: (03) 5555 6473</td>
                    </tr>
                    <tr>
                        <td>Id</td>
                        <td>MRN: 12345 (Acme Healthcare)</td>
                    </tr>
                </tbody>
            </table>
        </div>
    </text>
    <address>
        <line value="534 Erewhon St"/>
        <use value="home"/>
        <city value="PleasantVille"/>
        <state value="Vic"/>
        <postalCode value="3999"/>
    </address>
    <careProvider>
        <reference value="#org3141"/>
    </careProvider>
    <contact>
        <relationship>
            <coding>
                <code value="partner"/>
                <system value="http://hl7.org/fhir/patient-contact-relationship"/>
            </coding>
        </relationship>
        <name>
            <given value="Bénédicte"/>
            <given value="Denise">
                <extension url="http://hl7.org/fhir/StructureDefinition/qualifier">
                    <valueCode value="MID"/>
                </extension>
            </given>
            <given value="Marie"/>
            <family value="du">
                <extension url="http://example.org/fhir/StructureDefinition/qualifier">
                    <valueCode value="VV"/>
                </extension>
            </family>
            <family value="Marché"/>
        </name>
        <telecom>
            <value value="+33 (237) 998327"/>
            <system value="phone"/>
        </telecom>
    </contact>
    <telecom>
        <use value="home"/>
    </telecom>
    <telecom>
        <use value="work"/>
        <system value="phone"/>
        <value value="(03) 5555 6473"/>
    </telecom>
    <identifier>
        <use value="usual"/>
        <assigner>
            <display value="Acme Healthcare"/>
        </assigner>
        <system value="urn:oid:1.2.36.146.595.217.0.1"/>
        <value value="12345"/>
        <period>
            <start value="2001-05-06"/>
        </period>
    </identifier>
    <gender value="male"/>
    <name>
        <given value="Peter"/>
        <given value="James"/>
        <use value="official"/>
        <family value="Chalmers"/>
    </name>
    <name>
        <given value="Jim"/>
        <use value="usual"/>
    </name>
    <active>
        <extension url="http://example.org/fhir/StructureDefinition/recordStatus">
            <valueCode value="archived"/>
        </extension>
    </active>
</Patient>